File: data/MnO2_coin cell_cycling_C02.txt
cycle number	Q discharge/mA.h	Q charge/mA.h	Ewe/V	(Q-Qo)/mA.h	time/s	<I>/mA	Capacity/mA.h	Efficiency/%
0,000000000000000E+000	0,000000000000000E+000	0,000000000000000E+000	2,7614701E+000	0,000000000000000E+000	0,000000000000000E+000	0,000000000000000E+000	0,000000000000000E+000	0,0000000E+000
0,000000000000000E+000	1,043186038312673E+000	0,000000000000000E+000	2,5660625E+000	-3,861007522302204E-001	1,670478557800161E+003	-4,497745950745219E+000	1,043186038312673E+000	0,0000000E+000
0,000000000000000E+000	3,929240105254731E+000	0,000000000000000E+000	2,4079947E+000	-3,272154819172276E+000	3,980478499444653E+003	-4,497796573502184E+000	3,929240105254731E+000	0,0000000E+000
0,000000000000000E+000	6,815267937775133E+000	0,000000000000000E+000	2,3604462E+000	-6,158182651692682E+000	6,290478469957365E+003	-4,497700888903667E+000	6,815267937775133E+000	0,0000000E+000
0,000000000000000E+000	9,701282418154131E+000	0,000000000000000E+000	2,3284683E+000	-9,044197108142535E+000	8,600478441989733E+003	-4,497749794070249E+000	9,701282418154131E+000	0,0000000E+000
0,000000000000000E+000	1,258732135984044E+001	0,000000000000000E+000	2,2996449E+000	-1,193023600642602E+001	1,091047841402212E+004	-4,497706610154906E+000	1,258732135984044E+001	0,0000000E+000
0,000000000000000E+000	1,547338825507743E+001	0,000000000000000E+000	2,2717421E+000	-1,481630285812966E+001	1,322047838605450E+004	-4,497752899888718E+000	1,547338825507743E+001	0,0000000E+000
0,000000000000000E+000	1,835944192937927E+001	0,000000000000000E+000	2,2431633E+000	-1,770235645447382E+001	1,553047835808688E+004	-4,497682755914836E+000	1,835944192937927E+001	0,0000000E+000
0,000000000000000E+000	2,124548208929306E+001	0,000000000000000E+000	2,2102649E+000	-2,058839653466995E+001	1,784047833011927E+004	-4,497613904627432E+000	2,124548208929306E+001	0,0000000E+000
0,000000000000000E+000	2,413152295684161E+001	0,000000000000000E+000	2,1692128E+000	-2,347443732298033E+001	2,015047830215165E+004	-4,497788155953877E+000	2,413152295684161E+001	0,0000000E+000
0,000000000000000E+000	2,701754777988641E+001	0,000000000000000E+000	2,1118336E+000	-2,636046206672494E+001	2,246047827418403E+004	-4,497768878657578E+000	2,701754777988641E+001	0,0000000E+000
0,000000000000000E+000	2,990358253233255E+001	0,000000000000000E+000	2,0200171E+000	-2,924649673979102E+001	2,477047824621643E+004	-4,497674300097828E+000	2,990358253233255E+001	0,0000000E+000
0,000000000000000E+000	3,278961202087140E+001	0,000000000000000E+000	1,8463366E+000	-3,213252615386987E+001	2,708047821824881E+004	-4,497705790036310E+000	3,278961202087140E+001	0,0000000E+000
0,000000000000000E+000	3,567560653654370E+001	0,000000000000000E+000	1,5940769E+000	-3,501852057118148E+001	2,939047819028120E+004	-4,497699364509296E+000	3,567560653654370E+001	0,0000000E+000
0,000000000000000E+000	3,856159038489843E+001	0,000000000000000E+000	1,3850958E+000	-3,790450431477812E+001	3,170047816231358E+004	-4,497598351111492E+000	3,856159038489843E+001	0,0000000E+000
0,000000000000000E+000	4,144755180684793E+001	0,000000000000000E+000	1,1770430E+000	-4,079046561847655E+001	3,401047815170325E+004	-4,497479106826014E+000	4,144755180684793E+001	0,0000000E+000
1,000000000000000E+000	0,000000000000000E+000	5,491894265810648E-004	1,6592586E+000	-4,303792675130839E+001	3,611029875561455E+004	4,501705308481726E+000	5,491894265810648E-004	0,0000000E+000
1,000000000000000E+000	0,000000000000000E+000	7,559700324330861E-001	2,4299817E+000	-4,228250588692877E+001	3,671444395673973E+004	4,501358526491167E+000	7,559700324330861E-001	0,0000000E+000
1,000000000000000E+000	0,000000000000000E+000	3,638298091329152E+000	2,6889060E+000	-3,940017772222264E+001	3,901965216103358E+004	4,501294338421895E+000	3,638298091329152E+000	0,0000000E+000
1,000000000000000E+000	0,000000000000000E+000	6,526583683975939E+000	2,7427142E+000	-3,651189201609898E+001	4,132965216533629E+004	4,501114314024062E+000	6,526583683975939E+000	0,0000000E+000
1,000000000000000E+000	0,000000000000000E+000	9,414864701904142E+000	2,7644491E+000	-3,362361088257811E+001	4,363965216963900E+004	4,501081922606301E+000	9,414864701904142E+000	0,0000000E+000
1,000000000000000E+000	0,000000000000000E+000	1,230314900675290E+001	2,7860541E+000	-3,073532646249146E+001	4,594965217394171E+004	4,501283103633020E+000	1,230314900675290E+001	0,0000000E+000
1,000000000000000E+000	0,000000000000000E+000	1,519142029325565E+001	2,8069220E+000	-2,784705508550421E+001	4,825965217824442E+004	4,501155927081439E+000	1,519142029325565E+001	0,0000000E+000
1,000000000000000E+000	0,000000000000000E+000	1,807967566239125E+001	2,8272095E+000	-2,495879963685150E+001	5,056965218254713E+004	4,501145450781537E+000	1,807967566239125E+001	0,0000000E+000
1,000000000000000E+000	0,000000000000000E+000	2,096795945161188E+001	2,8469429E+000	-2,207051576934952E+001	5,287965218684984E+004	4,501265278029568E+000	2,096795945161188E+001	0,0000000E+000
1,000000000000000E+000	0,000000000000000E+000	2,385625451183599E+001	2,8673832E+000	-1,918222063137280E+001	5,518965219115267E+004	4,501217905844268E+000	2,385625451183599E+001	0,0000000E+000
1,000000000000000E+000	0,000000000000000E+000	2,674455551214731E+001	2,8912263E+000	-1,629391955363777E+001	5,749965219545538E+004	4,501158766983675E+000	2,674455551214731E+001	0,0000000E+000
1,000000000000000E+000	0,000000000000000E+000	2,963283289840152E+001	2,9211838E+000	-1,340564210697137E+001	5,980965219975809E+004	4,501235661587898E+000	2,963283289840152E+001	0,0000000E+000
1,000000000000000E+000	0,000000000000000E+000	3,252111227917661E+001	2,9592419E+000	-1,051736268295232E+001	6,211965220406080E+004	4,501159440277742E+000	3,252111227917661E+001	0,0000000E+000
1,000000000000000E+000	8,018542116167811E-002	0,000000000000000E+000	2,7712090E+000	-8,207216359914224E+000	6,439559920830000E+004	-4,497858524852552E+000	8,018542116167811E-002	0,0000000E+000
1,000000000000000E+000	2,955661582212395E+000	0,000000000000000E+000	2,4751012E+000	-1,108269247751949E+001	6,669710813576984E+004	-4,497708250609003E+000	2,955661582212395E+000	0,0000000E+000
1,000000000000000E+000	5,841770276853746E+000	0,000000000000000E+000	2,4055696E+000	-1,396880112850118E+001	6,900712298932788E+004	-4,497656293723041E+000	5,841770276853746E+000	0,0000000E+000
1,000000000000000E+000	8,727834907158396E+000	0,000000000000000E+000	2,3712926E+000	-1,685486569150856E+001	7,131713784292224E+004	-4,497644208640947E+000	8,727834907158396E+000	0,0000000E+000
1,000000000000000E+000	1,161392268155968E+001	0,000000000000000E+000	2,3446462E+000	-1,974095338630909E+001	7,362715269653662E+004	-4,497692558340276E+000	1,161392268155968E+001	0,0000000E+000
1,000000000000000E+000	1,449999919182956E+001	0,000000000000000E+000	2,3157160E+000	-2,262702981723733E+001	7,593716755009955E+004	-4,497739904623771E+000	1,449999919182956E+001	0,0000000E+000
1,000000000000000E+000	1,738606616963640E+001	0,000000000000000E+000	2,2817025E+000	-2,551309671543209E+001	7,824718240366573E+004	-4,497742189536281E+000	1,738606616963640E+001	0,0000000E+000
1,000000000000000E+000	2,027212511851731E+001	0,000000000000000E+000	2,2384391E+000	-2,839915558486766E+001	8,055719725727953E+004	-4,497859207884422E+000	2,027212511851731E+001	0,0000000E+000
1,000000000000000E+000	2,315820802695033E+001	0,000000000000000E+000	2,1743457E+000	-3,128523842884742E+001	8,286721211087017E+004	-4,497802842047078E+000	2,315820802695033E+001	0,0000000E+000
1,000000000000000E+000	2,604426639860031E+001	0,000000000000000E+000	2,0488670E+000	-3,417129672819106E+001	8,517722696442826E+004	-4,497594352475566E+000	2,604426639860031E+001	0,0000000E+000
1,000000000000000E+000	2,893031361501316E+001	0,000000000000000E+000	1,7344273E+000	-3,705734386694296E+001	8,748724181802408E+004	-4,497671070118780E+000	2,893031361501316E+001	0,0000000E+000
1,000000000000000E+000	3,181634987096550E+001	0,000000000000000E+000	1,4800823E+000	-3,994338003839398E+001	8,979725667163811E+004	-4,497614924751414E+000	3,181634987096550E+001	0,0000000E+000
1,000000000000000E+000	3,470238715661711E+001	0,000000000000000E+000	1,2196726E+000	-4,282941723950132E+001	9,210727152519894E+004	-4,497611257199714E+000	3,470238715661711E+001	0,0000000E+000
2,000000000000000E+000	0,000000000000000E+000	3,758658219708337E-004	1,5635005E+000	-4,518121528910965E+001	9,429029420884466E+004	4,501721647575670E+000	3,758658219708337E-004	0,0000000E+000
2,000000000000000E+000	0,000000000000000E+000	7,633987024330563E-001	2,3343344E+000	-4,441819242609490E+001	9,490053386446345E+004	4,501224958484178E+000	7,633987024330563E-001	0,0000000E+000
2,000000000000000E+000	0,000000000000000E+000	3,569707805556139E+000	2,6693175E+000	-4,161188322661840E+001	9,714492313360726E+004	4,501220300660116E+000	3,569707805556139E+000	0,0000000E+000
2,000000000000000E+000	0,000000000000000E+000	6,458042716213174E+000	2,7441540E+000	-3,872354820868071E+001	9,945493798717609E+004	4,501164616953735E+000	6,458042716213174E+000	0,0000000E+000
2,000000000000000E+000	0,000000000000000E+000	9,346350914202160E+000	2,7651823E+000	-3,583523989676158E+001	1,017649528407344E+005	4,501142518202292E+000	9,346350914202160E+000	0,0000000E+000
2,000000000000000E+000	0,000000000000000E+000	1,223468283658500E+001	2,7860694E+000	-3,294690786700572E+001	1,040749676943483E+005	4,501209192929912E+000	1,223468283658500E+001	0,0000000E+000
2,000000000000000E+000	0,000000000000000E+000	1,512299715294216E+001	2,8081822E+000	-3,005859343801053E+001	1,063849825479459E+005	4,501235429945232E+000	1,512299715294216E+001	0,0000000E+000
2,000000000000000E+000	0,000000000000000E+000	1,801132272634673E+001	2,8309560E+000	-2,717026778410689E+001	1,086949974015043E+005	4,501105894899259E+000	1,801132272634673E+001	0,0000000E+000
2,000000000000000E+000	0,000000000000000E+000	2,089960493442904E+001	2,8537145E+000	-2,428198549680628E+001	1,110050122550935E+005	4,501091651209751E+000	2,089960493442904E+001	0,0000000E+000
2,000000000000000E+000	0,000000000000000E+000	2,378790180663226E+001	2,8771107E+000	-2,139368854613439E+001	1,133150271087077E+005	4,501136883156328E+000	2,378790180663226E+001	0,0000000E+000
2,000000000000000E+000	0,000000000000000E+000	2,667617316416652E+001	2,9024622E+000	-1,850541710873199E+001	1,156250419622757E+005	4,501206172464460E+000	2,667617316416652E+001	0,0000000E+000
2,000000000000000E+000	0,000000000000000E+000	2,956446718898845E+001	2,9322441E+000	-1,561712300516293E+001	1,179350568158366E+005	4,501253588286689E+000	2,956446718898845E+001	0,0000000E+000
2,000000000000000E+000	0,000000000000000E+000	3,245276301021102E+001	2,9686713E+000	-1,272882713208225E+001	1,202450716694510E+005	4,501245718106908E+000	3,245276301021102E+001	0,0000000E+000
2,000000000000000E+000	4,078029612961875E-001	0,000000000000000E+000	2,6974266E+000	-1,109120305205385E+001	1,225073831343387E+005	-4,497802462490256E+000	4,078029612961875E-001	0,0000000E+000
2,000000000000000E+000	3,293924182762755E+000	0,000000000000000E+000	2,4805551E+000	-1,397732422974253E+001	1,248173979878963E+005	-4,497875191366539E+000	3,293924182762755E+000	0,0000000E+000
2,000000000000000E+000	6,179982544488910E+000	0,000000000000000E+000	2,4077580E+000	-1,686338252397320E+001	1,271274128414679E+005	-4,497571111893357E+000	6,179982544488910E+000	0,0000000E+000
2,000000000000000E+000	9,066035777801410E+000	0,000000000000000E+000	2,3761237E+000	-1,974943567789163E+001	1,294374276950827E+005	-4,497697343808203E+000	9,066035777801410E+000	0,0000000E+000
2,000000000000000E+000	1,195208115663679E+001	0,000000000000000E+000	2,3488128E+000	-2,263548097744997E+001	1,317474382141258E+005	-4,497737892595810E+000	1,195208115663679E+001	0,0000000E+000
2,000000000000000E+000	1,483811246486097E+001	0,000000000000000E+000	2,3174615E+000	-2,552151220639981E+001	1,340574385755524E+005	-4,497713996601547E+000	1,483811246486097E+001	0,0000000E+000
2,000000000000000E+000	1,772413114640103E+001	0,000000000000000E+000	2,2791476E+000	-2,840753080899525E+001	1,363674389369788E+005	-4,497587576053498E+000	1,772413114640103E+001	0,0000000E+000
2,000000000000000E+000	2,061017504788759E+001	0,000000000000000E+000	2,2266722E+000	-3,129357463263474E+001	1,386774392984053E+005	-4,497814234085737E+000	2,061017504788759E+001	0,0000000E+000
2,000000000000000E+000	2,349619999029954E+001	0,000000000000000E+000	2,1342063E+000	-3,417959949457752E+001	1,409874396598320E+005	-4,497730715809873E+000	2,349619999029954E+001	0,0000000E+000
2,000000000000000E+000	2,638223942872760E+001	0,000000000000000E+000	1,8777149E+000	-3,706563886026576E+001	1,432974400212585E+005	-4,497807899934506E+000	2,638223942872760E+001	0,0000000E+000
2,000000000000000E+000	2,926826097533063E+001	0,000000000000000E+000	1,5674686E+000	-3,995166032376682E+001	1,456074403826850E+005	-4,497655023673508E+000	2,926826097533063E+001	0,0000000E+000
2,000000000000000E+000	3,215428145575746E+001	0,000000000000000E+000	1,3027470E+000	-4,283768072202036E+001	1,479174407441111E+005	-4,497665367347503E+000	3,215428145575746E+001	0,0000000E+000
2,000000000000000E+000	3,498628900178947E+001	0,000000000000000E+000	1,0000017E+000	-4,566968815568474E+001	1,501842494987813E+005	-4,497729564659104E+000	3,498628900178947E+001	0,0000000E+000
3,000000000000000E+000	0,000000000000000E+000	5,383439774516424E-001	2,1865251E+000	-4,513134465767034E+001	1,509148040130851E+005	4,501227971618648E+000	5,383439774516424E-001	0,0000000E+000
3,000000000000000E+000	0,000000000000000E+000	3,049012669496988E+000	2,6478612E+000	-4,262067587198787E+001	1,529227769272574E+005	4,501341092623450E+000	3,049012669496988E+000	0,0000000E+000
3,000000000000000E+000	0,000000000000000E+000	5,937345503726697E+000	2,7408924E+000	-3,973234293491427E+001	1,552327772886842E+005	4,501360990500891E+000	5,937345503726697E+000	0,0000000E+000
3,000000000000000E+000	0,000000000000000E+000	8,825693188448033E+000	2,7612410E+000	-3,684399515131972E+001	1,575427776501104E+005	4,501258963157846E+000	8,825693188448033E+000	0,0000000E+000
3,000000000000000E+000	0,000000000000000E+000	1,171401631640796E+001	2,7808027E+000	-3,395567191784562E+001	1,598527780115372E+005	4,501263487521610E+000	1,171401631640796E+001	0,0000000E+000
3,000000000000000E+000	0,000000000000000E+000	1,460233332551105E+001	2,8027782E+000	-3,106735480184227E+001	1,621627783729634E+005	4,501256202881483E+000	1,460233332551105E+001	0,0000000E+000
3,000000000000000E+000	0,000000000000000E+000	1,749066544545739E+001	2,8265524E+000	-2,817902259543822E+001	1,644727787343899E+005	4,501196805364990E+000	1,749066544545739E+001	0,0000000E+000
3,000000000000000E+000	0,000000000000000E+000	2,037896601355362E+001	2,8509340E+000	-2,529072194999403E+001	1,667827790958162E+005	4,501275467903925E+000	2,037896601355362E+001	0,0000000E+000
3,000000000000000E+000	0,000000000000000E+000	2,326724826839020E+001	2,8756516E+000	-2,240243961683771E+001	1,690927794572426E+005	4,501090567273931E+000	2,326724826839020E+001	0,0000000E+000
3,000000000000000E+000	0,000000000000000E+000	2,615554063946624E+001	2,9019313E+000	-1,951414716792782E+001	1,714027798186695E+005	4,501361105771488E+000	2,615554063946624E+001	0,0000000E+000
3,000000000000000E+000	0,000000000000000E+000	2,904385529716139E+001	2,9317019E+000	-1,662583243342839E+001	1,737127801800960E+005	4,501291154556516E+000	2,904385529716139E+001	0,0000000E+000
3,000000000000000E+000	0,000000000000000E+000	3,193215407761383E+001	2,9675906E+000	-1,373753358918693E+001	1,760227805415228E+005	4,501200865486526E+000	3,193215407761383E+001	0,0000000E+000
3,000000000000000E+000	2,980358259100649E-001	0,000000000000000E+000	2,7232478E+000	-1,186771249799861E+001	1,782951320970594E+005	-4,497628724537964E+000	2,980358259100649E-001	0,0000000E+000
3,000000000000000E+000	3,184060051591106E+000	0,000000000000000E+000	2,4949343E+000	-1,475373668037404E+001	1,806051324584861E+005	-4,497808062132230E+000	3,184060051591106E+000	0,0000000E+000
3,000000000000000E+000	6,070118249170516E+000	0,000000000000000E+000	2,4153581E+000	-1,763979480041175E+001	1,829151328199124E+005	-4,497756445551078E+000	6,070118249170516E+000	0,0000000E+000
3,000000000000000E+000	8,956144847361482E+000	0,000000000000000E+000	2,3826125E+000	-2,052582131952508E+001	1,852251331813396E+005	-4,497740878273062E+000	8,956144847361482E+000	0,0000000E+000
3,000000000000000E+000	1,184220204976792E+001	0,000000000000000E+000	2,3557982E+000	-2,341187844232135E+001	1,875351335427663E+005	-4,497791727979385E+000	1,184220204976792E+001	0,0000000E+000
3,000000000000000E+000	1,472824397851416E+001	0,000000000000000E+000	2,3249278E+000	-2,629792029180394E+001	1,898451339041931E+005	-4,497774087992292E+000	1,472824397851416E+001	0,0000000E+000
3,000000000000000E+000	1,761428240278810E+001	0,000000000000000E+000	2,2862740E+000	-2,918395863653909E+001	1,921551342656198E+005	-4,497645996397292E+000	1,761428240278810E+001	0,0000000E+000
3,000000000000000E+000	2,050029829619328E+001	0,000000000000000E+000	2,2315683E+000	-3,206997444261466E+001	1,944651346270465E+005	-4,497571399520740E+000	2,050029829619328E+001	0,0000000E+000
3,000000000000000E+000	2,338631378091722E+001	0,000000000000000E+000	2,1312082E+000	-3,495598984164254E+001	1,967751349884737E+005	-4,497716323436180E+000	2,338631378091722E+001	0,0000000E+000
3,000000000000000E+000	2,627228694480801E+001	0,000000000000000E+000	1,8385302E+000	-3,784196289413858E+001	1,990851353499005E+005	-4,497735092335068E+000	2,627228694480801E+001	0,0000000E+000
3,000000000000000E+000	2,915826890794611E+001	0,000000000000000E+000	1,5499272E+000	-4,072794475091658E+001	2,013951357113272E+005	-4,497545123193903E+000	2,915826890794611E+001	0,0000000E+000
3,000000000000000E+000	3,204423584980066E+001	0,000000000000000E+000	1,2819135E+000	-4,361391157767603E+001	2,037051360727539E+005	-4,497541639151962E+000	3,204423584980066E+001	0,0000000E+000
4,000000000000000E+000	0,000000000000000E+000	1,297717269261678E-004	1,4954163E+000	-4,607100088693068E+001	2,059720570274401E+005	4,501615941939559E+000	1,297717269261678E-004	0,0000000E+000
4,000000000000000E+000	0,000000000000000E+000	7,296937266616290E-001	2,2662120E+000	-4,534143691012149E+001	2,065555277187312E+005	4,501397429319792E+000	7,296937266616290E-001	0,0000000E+000
4,000000000000000E+000	0,000000000000000E+000	3,411414640201436E+000	2,6653340E+000	-4,265971589360296E+001	2,087003120543067E+005	4,501023211750233E+000	3,411414640201436E+000	0,0000000E+000
4,000000000000000E+000	0,000000000000000E+000	6,299694934194482E+000	2,7431419E+000	-3,977143548352581E+001	2,110103124157332E+005	4,501158191250548E+000	6,299694934194482E+000	0,0000000E+000
4,000000000000000E+000	0,000000000000000E+000	9,188002244185178E+000	2,7623026E+000	-3,688312806399244E+001	2,133203127771599E+005	4,501207572632439E+000	9,188002244185178E+000	0,0000000E+000
4,000000000000000E+000	0,000000000000000E+000	1,207629221099258E+001	2,7823532E+000	-3,399483798349804E+001	2,156303131385863E+005	4,501301834607284E+000	1,207629221099258E+001	0,0000000E+000
4,000000000000000E+000	0,000000000000000E+000	1,496459503715563E+001	2,8050773E+000	-3,110653504720608E+001	2,179403135000127E+005	4,501367208523219E+000	1,496459503715563E+001	0,0000000E+000
4,000000000000000E+000	0,000000000000000E+000	1,785291850206534E+001	2,8296690E+000	-2,821821149422616E+001	2,202503138614397E+005	4,501325955404800E+000	1,785291850206534E+001	0,0000000E+000
4,000000000000000E+000	0,000000000000000E+000	2,074118336854217E+001	2,8549290E+000	-2,532994654855169E+001	2,225603142228662E+005	4,501177620155538E+000	2,074118336854217E+001	0,0000000E+000
4,000000000000000E+000	0,000000000000000E+000	2,362945404386555E+001	2,8802271E+000	-2,244167579439428E+001	2,248703145842929E+005	4,501168661238686E+000	2,362945404386555E+001	0,0000000E+000
4,000000000000000E+000	0,000000000000000E+000	2,651772877816971E+001	2,9074502E+000	-1,955340098123002E+001	2,271803149457190E+005	4,501043776099688E+000	2,651772877816971E+001	0,0000000E+000
4,000000000000000E+000	0,000000000000000E+000	2,940603273591462E+001	2,9387329E+000	-1,666509694620421E+001	2,294903153071452E+005	4,501281705953411E+000	2,940603273591462E+001	0,0000000E+000
4,000000000000000E+000	0,000000000000000E+000	3,229433058904156E+001	2,9760041E+000	-1,377679902918937E+001	2,318003156685720E+005	4,501347005803830E+000	3,229433058904156E+001	0,0000000E+000
4,000000000000000E+000	8,614670731621054E-001	0,000000000000000E+000	2,6468301E+000	-1,304905376078550E+001	2,340608586222617E+005	-4,497631712009745E+000	8,614670731621054E-001	0,0000000E+000
4,000000000000000E+000	3,747460080537028E+000	0,000000000000000E+000	2,4808147E+000	-1,593504671256730E+001	2,363708589836881E+005	-4,497704443946232E+000	3,747460080537028E+000	0,0000000E+000
4,000000000000000E+000	6,633493559982536E+000	0,000000000000000E+000	2,4116993E+000	-1,882108011281109E+001	2,386808593451150E+005	-4,497537807804143E+000	6,633493559982536E+000	0,0000000E+000
4,000000000000000E+000	9,519494000341487E+000	0,000000000000000E+000	2,3821123E+000	-2,170708047478289E+001	2,409908597065415E+005	-4,497696517966586E+000	9,519494000341487E+000	0,0000000E+000
4,000000000000000E+000	1,240548691263810E+001	0,000000000000000E+000	2,3551145E+000	-2,459307330881230E+001	2,433008600679682E+005	-4,497692200645485E+000	1,240548691263810E+001	0,0000000E+000
4,000000000000000E+000	1,529148629618071E+001	0,000000000000000E+000	2,3230793E+000	-2,747907261391841E+001	2,456108604293946E+005	-4,497649934874510E+000	1,529148629618071E+001	0,0000000E+000
4,000000000000000E+000	1,817749835224013E+001	0,000000000000000E+000	2,2824588E+000	-3,036508458751837E+001	2,479208607908210E+005	-4,497765748801524E+000	1,817749835224013E+001	0,0000000E+000
4,000000000000000E+000	2,106353412062048E+001	0,000000000000000E+000	2,2230287E+000	-3,325112027933735E+001	2,502308611522480E+005	-4,497607882469056E+000	2,106353412062048E+001	0,0000000E+000
4,000000000000000E+000	2,394955098462775E+001	0,000000000000000E+000	2,0973132E+000	-3,613713705827284E+001	2,525408615136745E+005	-4,497655011587278E+000	2,394955098462775E+001	0,0000000E+000
4,000000000000000E+000	2,683550155444979E+001	0,000000000000000E+000	1,7376927E+000	-3,902308750255468E+001	2,548508618751008E+005	-4,497500743651820E+000	2,683550155444979E+001	0,0000000E+000
4,000000000000000E+000	2,972150023233599E+001	0,000000000000000E+000	1,4943011E+000	-4,190908608462969E+001	2,571608622365273E+005	-4,497609404018044E+000	2,972150023233599E+001	0,0000000E+000
4,000000000000000E+000	3,260744164550575E+001	0,000000000000000E+000	1,2134358E+000	-4,479502736631753E+001	2,594708625979533E+005	-4,497450577758485E+000	3,260744164550575E+001	0,0000000E+000
5,000000000000000E+000	0,000000000000000E+000	3,463519581209289E-002	1,6558671E+000	-4,653066319409691E+001	2,612155438709313E+005	4,501439186916892E+000	3,463519581209289E-002	0,0000000E+000
5,000000000000000E+000	0,000000000000000E+000	1,244776935199844E+000	2,4264987E+000	-4,532052141301271E+001	2,621833739868606E+005	4,501256912506692E+000	1,244776935199844E+000	0,0000000E+000
5,000000000000000E+000	0,000000000000000E+000	4,133126038486377E+000	2,6856558E+000	-4,243217220610046E+001	2,644933876657672E+005	4,501128270132763E+000	4,133126038486377E+000	0,0000000E+000
5,000000000000000E+000	0,000000000000000E+000	7,021462672356766E+000	2,7419846E+000	-3,954383546589820E+001	2,668034013446639E+005	4,501262431770732E+000	7,021462672356766E+000	0,0000000E+000
5,000000000000000E+000	0,000000000000000E+000	9,909820704067579E+000	2,7606566E+000	-3,665547733352473E+001	2,691134150235765E+005	4,501218441940466E+000	9,909820704067579E+000	0,0000000E+000
5,000000000000000E+000	0,000000000000000E+000	1,279816605719302E+001	2,7814329E+000	-3,376713187574583E+001	2,714234287024662E+005	4,501325818070833E+000	1,279816605719302E+001	0,0000000E+000
5,000000000000000E+000	0,000000000000000E+000	1,568652972190756E+001	2,8049550E+000	-3,087876811125819E+001	2,737334423813787E+005	4,501353548171356E+000	1,568652972190756E+001	0,0000000E+000
5,000000000000000E+000	0,000000000000000E+000	1,857490262404688E+001	2,8301616E+000	-2,799039512313472E+001	2,760434560602754E+005	4,501378899494661E+000	1,857490262404688E+001	0,0000000E+000
5,000000000000000E+000	0,000000000000000E+000	2,146322701676125E+001	2,8557806E+000	-2,510207065327538E+001	2,783534697391819E+005	4,501302198868093E+000	2,146322701676125E+001	0,0000000E+000
5,000000000000000E+000	0,000000000000000E+000	2,435158829724646E+001	2,8822093E+000	-2,221370929724715E+001	2,806634834180847E+005	4,501420926690631E+000	2,435158829724646E+001	0,0000000E+000
5,000000000000000E+000	0,000000000000000E+000	2,723995271429040E+001	2,9105704E+000	-1,932534480487082E+001	2,829734970969846E+005	4,501357050300167E+000	2,723995271429040E+001	0,0000000E+000
5,000000000000000E+000	0,000000000000000E+000	3,012828529050157E+001	2,9433770E+000	-1,643701215174240E+001	2,852835107758939E+005	4,501308585125394E+000	3,012828529050157E+001	0,0000000E+000
5,000000000000000E+000	0,000000000000000E+000	3,301664606072658E+001	2,9833140E+000	-1,354865132108662E+001	2,875935244547864E+005	4,501219557456314E+000	3,301664606072658E+001	0,0000000E+000
5,000000000000000E+000	1,427438961988476E+000	0,000000000000000E+000	2,6000147E+000	-1,393051880595234E+001	2,898722817569830E+005	-4,497598534152325E+000	1,427438961988476E+000	0,0000000E+000
5,000000000000000E+000	4,313443125179609E+000	0,000000000000000E+000	2,4685133E+000	-1,681652290300828E+001	2,921822954358868E+005	-4,497697386588346E+000	4,313443125179609E+000	0,0000000E+000
5,000000000000000E+000	7,199468251688588E+000	0,000000000000000E+000	2,4089763E+000	-1,970254795065064E+001	2,944923091147866E+005	-4,497607210870663E+000	7,199468251688588E+000	0,0000000E+000
5,000000000000000E+000	1,008547502769286E+001	0,000000000000000E+000	2,3808482E+000	-2,258855464837485E+001	2,968023227936961E+005	-4,497562481944005E+000	1,008547502769286E+001	0,0000000E+000
5,000000000000000E+000	1,297145960698537E+001	0,000000000000000E+000	2,3528688E+000	-2,547453915040822E+001	2,991123364725872E+005	-4,497698964356988E+000	1,297145960698537E+001	0,0000000E+000
5,000000000000000E+000	1,585749080850215E+001	0,000000000000000E+000	2,3194168E+000	-2,836057027306554E+001	3,014223501515021E+005	-4,497711267801791E+000	1,585749080850215E+001	0,0000000E+000
5,000000000000000E+000	1,874348752995804E+001	0,000000000000000E+000	2,2753971E+000	-3,124656690003000E+001	3,037323638303950E+005	-4,497624927373739E+000	1,874348752995804E+001	0,0000000E+000
5,000000000000000E+000	2,162949376002703E+001	0,000000000000000E+000	2,2060182E+000	-3,413257302785948E+001	3,060423775093036E+005	-4,497670919428190E+000	2,162949376002703E+001	0,0000000E+000
5,000000000000000E+000	2,451554524680877E+001	0,000000000000000E+000	2,0360308E+000	-3,701862443794757E+001	3,083523911882043E+005	-4,497640212457278E+000	2,451554524680877E+001	0,0000000E+000
5,000000000000000E+000	2,740153902300759E+001	0,000000000000000E+000	1,6637422E+000	-3,990461810373984E+001	3,106624048671067E+005	-4,497612830746384E+000	2,740153902300759E+001	0,0000000E+000
5,000000000000000E+000	3,028749751754584E+001	0,000000000000000E+000	1,4343325E+000	-4,279057646539699E+001	3,129724185460135E+005	-4,497540870658023E+000	3,028749751754584E+001	0,0000000E+000
5,000000000000000E+000	3,317345233363051E+001	0,000000000000000E+000	1,1415285E+000	-4,567653114624511E+001	3,152824322249093E+005	-4,497468486239775E+000	3,317345233363051E+001	0,0000000E+000
6,000000000000000E+000	0,000000000000000E+000	2,194349111233553E-001	1,8350624E+000	-4,654141727410274E+001	3,166258488239935E+005	4,501422273822036E+000	2,194349111233553E-001	0,0000000E+000
6,000000000000000E+000	0,000000000000000E+000	1,950343548401303E+000	2,5486355E+000	-4,481050858099142E+001	3,180101589925983E+005	4,501213939756577E+000	1,950343548401303E+000	0,0000000E+000
6,000000000000000E+000	0,000000000000000E+000	4,838739640753401E+000	2,7101138E+000	-4,192211239795071E+001	3,203201726714987E+005	4,501371302446064E+000	4,838739640753401E+000	0,0000000E+000
6,000000000000000E+000	0,000000000000000E+000	7,727129397633421E+000	2,7433481E+000	-3,903372254855919E+001	3,226301863504016E+005	4,501405620395960E+000	7,727129397633421E+000	0,0000000E+000
6,000000000000000E+000	0,000000000000000E+000	1,061550747682582E+001	2,7608514E+000	-3,614534437353537E+001	3,249402000293080E+005	4,501301582803654E+000	1,061550747682582E+001	0,0000000E+000
6,000000000000000E+000	0,000000000000000E+000	1,350389054625130E+001	2,7815704E+000	-3,325696120960702E+001	3,272502137082042E+005	4,501255615659158E+000	1,350389054625130E+001	0,0000000E+000
6,000000000000000E+000	0,000000000000000E+000	1,639226916350087E+001	2,8048291E+000	-3,036858249677451E+001	3,295602273871172E+005	4,501298757086566E+000	1,639226916350087E+001	0,0000000E+000
6,000000000000000E+000	0,000000000000000E+000	1,928062681640422E+001	2,8298638E+000	-2,748022476374276E+001	3,318702410660069E+005	4,501304235366301E+000	1,928062681640422E+001	0,0000000E+000
6,000000000000000E+000	0,000000000000000E+000	2,216900352576500E+001	2,8557653E+000	-2,459184797949939E+001	3,341802547449190E+005	4,501399427082495E+000	2,216900352576500E+001	0,0000000E+000
6,000000000000000E+000	0,000000000000000E+000	2,505736849695554E+001	2,8822284E+000	-2,170348293286803E+001	3,364902684238162E+005	4,501347981508723E+000	2,505736849695554E+001	0,0000000E+000
6,000000000000000E+000	0,000000000000000E+000	2,794576179393271E+001	2,9112654E+000	-1,881508956187828E+001	3,388002821027225E+005	4,501323107447298E+000	2,794576179393271E+001	0,0000000E+000
6,000000000000000E+000	0,000000000000000E+000	3,083413766763523E+001	2,9451032E+000	-1,592671361324459E+001	3,411102957816254E+005	4,501361458010494E+000	3,083413766763523E+001	0,0000000E+000
6,000000000000000E+000	0,000000000000000E+000	3,372251244555717E+001	2,9865718E+000	-1,303833878122685E+001	3,434203094605252E+005	4,501348661910026E+000	3,372251244555717E+001	0,0000000E+000
6,000000000000000E+000	1,659427700653818E+000	0,000000000000000E+000	2,5916891E+000	-1,388789366638152E+001	3,456962465648188E+005	-4,497585350530929E+000	1,659427700653818E+000	0,0000000E+000
6,000000000000000E+000	4,545404867281544E+000	0,000000000000000E+000	2,4725082E+000	-1,677387076831929E+001	3,480062602437288E+005	-4,497512390732395E+000	4,545404867281544E+000	0,0000000E+000
6,000000000000000E+000	7,431376860386509E+000	0,000000000000000E+000	2,4156446E+000	-1,965984268454806E+001	3,503162739226199E+005	-4,497607099768325E+000	7,431376860386509E+000	0,0000000E+000
6,000000000000000E+000	1,031735525907202E+001	0,000000000000000E+000	2,3879058E+000	-2,254582100603247E+001	3,526262876015343E+005	-4,497422215866722E+000	1,031735525907202E+001	0,0000000E+000
6,000000000000000E+000	1,320332993113063E+001	0,000000000000000E+000	2,3608549E+000	-2,543179560104389E+001	3,549363012804277E+005	-4,497623575255941E+000	1,320332993113063E+001	0,0000000E+000
6,000000000000000E+000	1,608930334328411E+001	0,000000000000000E+000	2,3284416E+000	-2,831776893636889E+001	3,572463149593365E+005	-4,497585948678275E+000	1,608930334328411E+001	0,0000000E+000
6,000000000000000E+000	1,897526196824262E+001	0,000000000000000E+000	2,2867362E+000	-3,120372745419608E+001	3,595563286382370E+005	-4,497464893477313E+000	1,897526196824262E+001	0,0000000E+000
6,000000000000000E+000	2,186123062692068E+001	0,000000000000000E+000	2,2233953E+000	-3,408969598617840E+001	3,618663423171389E+005	-4,497546584479582E+000	2,186123062692068E+001	0,0000000E+000
6,000000000000000E+000	2,474719444454041E+001	0,000000000000000E+000	2,0769188E+000	-3,697565967430391E+001	3,641763559960462E+005	-4,497519675238337E+000	2,474719444454041E+001	0,0000000E+000
6,000000000000000E+000	2,763317049882722E+001	0,000000000000000E+000	1,6996157E+000	-3,986163560705688E+001	3,664863696749420E+005	-4,497663042598700E+000	2,763317049882722E+001	0,0000000E+000
6,000000000000000E+000	3,051912016747787E+001	0,000000000000000E+000	1,4684911E+000	-4,274758513716316E+001	3,687963833538555E+005	-4,497479968613875E+000	3,051912016747787E+001	0,0000000E+000
6,000000000000000E+000	3,340505412598212E+001	0,000000000000000E+000	1,1813357E+000	-4,563351894876040E+001	3,711063970327452E+005	-4,497664729307846E+000	3,340505412598212E+001	0,0000000E+000
7,000000000000000E+000	0,000000000000000E+000	1,137628345543543E-001	1,7222290E+000	-4,696307137050613E+001	3,726526668806951E+005	4,501374799197884E+000	1,137628345543543E-001	0,0000000E+000
7,000000000000000E+000	0,000000000000000E+000	1,613363013728619E+000	2,4828925E+000	-4,546347113814524E+001	3,738519997871158E+005	4,501222215971358E+000	1,613363013728619E+000	0,0000000E+000
7,000000000000000E+000	0,000000000000000E+000	4,501746941227939E+000	2,6941574E+000	-4,257508711644024E+001	3,761620134660210E+005	4,501459003635210E+000	4,501746941227939E+000	0,0000000E+000
7,000000000000000E+000	0,000000000000000E+000	7,390147386720444E+000	2,7399604E+000	-3,968668658142492E+001	3,784720271449196E+005	4,501446603091106E+000	7,390147386720444E+000	0,0000000E+000
7,000000000000000E+000	0,000000000000000E+000	1,027856348349701E+001	2,7584643E+000	-3,679827039922280E+001	3,807820408238303E+005	4,501450759690903E+000	1,027856348349701E+001	0,0000000E+000
7,000000000000000E+000	0,000000000000000E+000	1,316696551383787E+001	2,7792406E+000	-3,390986827951474E+001	3,830920545027200E+005	4,501324691489319E+000	1,316696551383787E+001	0,0000000E+000
7,000000000000000E+000	0,000000000000000E+000	1,605536280407768E+001	2,8025069E+000	-3,102147089838430E+001	3,854020681816344E+005	4,501357060084841E+000	1,605536280407768E+001	0,0000000E+000
7,000000000000000E+000	0,000000000000000E+000	1,894378302562693E+001	2,8274920E+000	-2,813305059935474E+001	3,877120818605293E+005	4,501394597491302E+000	1,894378302562693E+001	0,0000000E+000
7,000000000000000E+000	0,000000000000000E+000	2,183219523446433E+001	2,8528285E+000	-2,524463831707637E+001	3,900220955394371E+005	4,501381852687099E+000	2,183219523446433E+001	0,0000000E+000
7,000000000000000E+000	0,000000000000000E+000	2,472061183108776E+001	2,8787987E+000	-2,235622164729749E+001	3,923321092183385E+005	4,501445473104929E+000	2,472061183108776E+001	0,0000000E+000
7,000000000000000E+000	0,000000000000000E+000	2,760904155497624E+001	2,9067817E+000	-1,946779185067036E+001	3,946421228972394E+005	4,501384089070311E+000	2,760904155497624E+001	0,0000000E+000
7,000000000000000E+000	0,000000000000000E+000	3,049744258846161E+001	2,9395883E+000	-1,657939074347602E+001	3,969521365761478E+005	4,501335060236030E+000	3,049744258846161E+001	0,0000000E+000
7,000000000000000E+000	0,000000000000000E+000	3,338583528965196E+001	2,9801707E+000	-1,369099798172998E+001	3,992621502550421E+005	4,501255036896715E+000	3,338583528965196E+001	0,0000000E+000
7,000000000000000E+000	1,248321968179411E+000	0,000000000000000E+000	2,6255422E+000	-1,373755254340336E+001	4,015224489709958E+005	-4,497547732758679E+000	1,248321968179411E+000	0,0000000E+000
7,000000000000000E+000	4,134292758148009E+000	0,000000000000000E+000	2,4880407E+000	-1,662352327054079E+001	4,038324626498898E+005	-4,497606226544787E+000	4,134292758148009E+000	0,0000000E+000
7,000000000000000E+000	7,020278630916491E+000	0,000000000000000E+000	2,4243255E+000	-1,950950906588777E+001	4,061424763288042E+005	-4,497578183380212E+000	7,020278630916491E+000	0,0000000E+000
7,000000000000000E+000	9,906273947425072E+000	0,000000000000000E+000	2,3945055E+000	-2,239550430463455E+001	4,084524900076948E+005	-4,497386854302818E+000	9,906273947425072E+000	0,0000000E+000
7,000000000000000E+000	1,279225968469903E+001	0,000000000000000E+000	2,3679202E+000	-2,528148996436336E+001	4,107625036866050E+005	-4,497665902530239E+000	1,279225968469903E+001	0,0000000E+000
7,000000000000000E+000	1,567823737947128E+001	0,000000000000000E+000	2,3367481E+000	-2,816746758200815E+001	4,130725173655041E+005	-4,497642435306359E+000	1,567823737947128E+001	0,0000000E+000
7,000000000000000E+000	1,856422508988807E+001	0,000000000000000E+000	2,2968838E+000	-3,105345519725725E+001	4,153825310444086E+005	-4,497643895778493E+000	1,856422508988807E+001	0,0000000E+000
7,000000000000000E+000	2,145019850222053E+001	0,000000000000000E+000	2,2392218E+000	-3,393942848594591E+001	4,176925447233133E+005	-4,497580661151287E+000	2,145019850222053E+001	0,0000000E+000
7,000000000000000E+000	2,433614629749260E+001	0,000000000000000E+000	2,1144574E+000	-3,682537614242633E+001	4,200025584022119E+005	-4,497529354950023E+000	2,433614629749260E+001	0,0000000E+000
7,000000000000000E+000	2,722209778403817E+001	0,000000000000000E+000	1,7494596E+000	-3,971132749155002E+001	4,223125720811225E+005	-4,497560700236620E+000	2,722209778403817E+001	0,0000000E+000
7,000000000000000E+000	3,010804014475796E+001	0,000000000000000E+000	1,5091119E+000	-4,259726971003728E+001	4,246225857600123E+005	-4,497450427725496E+000	3,010804014475796E+001	0,0000000E+000
7,000000000000000E+000	3,299397987646243E+001	0,000000000000000E+000	1,2377334E+000	-4,548320929673142E+001	4,269325994389267E+005	-4,497565853372683E+000	3,299397987646243E+001	0,0000000E+000
8,000000000000000E+000	0,000000000000000E+000	3,953199797442224E-002	1,6164685E+000	-4,726872118574031E+001	4,287250555034322E+005	4,501579944163513E+000	3,953199797442224E-002	0,0000000E+000
8,000000000000000E+000	0,000000000000000E+000	1,285840562875880E+000	2,3871346E+000	-4,602241257966286E+001	4,297218039607946E+005	4,501301529330247E+000	1,285840562875880E+000	0,0000000E+000
8,000000000000000E+000	0,000000000000000E+000	4,165595465331288E+000	2,6753592E+000	-4,314265758926985E+001	4,320248986448525E+005	4,501495970401438E+000	4,165595465331288E+000	0,0000000E+000
8,000000000000000E+000	0,000000000000000E+000	7,053979027523042E+000	2,7345259E+000	-4,025427393272835E+001	4,343349123237669E+005	4,501345079606289E+000	7,053979027523042E+000	0,0000000E+000
8,000000000000000E+000	0,000000000000000E+000	9,942319895038203E+000	2,7533276E+000	-3,736593295919577E+001	4,366449260026608E+005	4,501370872363747E+000	9,942319895038203E+000	0,0000000E+000
8,000000000000000E+000	0,000000000000000E+000	1,283068872818960E+001	2,7737105E+000	-3,447756402832587E+001	4,389549396815686E+005	4,501190880610720E+000	1,283068872818960E+001	0,0000000E+000
8,000000000000000E+000	0,000000000000000E+000	1,571903268022528E+001	2,7968509E+000	-3,158921997123869E+001	4,412649533604700E+005	4,501292430677496E+000	1,571903268022528E+001	0,0000000E+000
8,000000000000000E+000	0,000000000000000E+000	1,860739637030264E+001	2,8219237E+000	-2,870085619011905E+001	4,435749670393718E+005	4,501279205650289E+000	1,860739637030264E+001	0,0000000E+000
8,000000000000000E+000	0,000000000000000E+000	2,149575466540412E+001	2,8476114E+000	-2,581249781918401E+001	4,458849807182793E+005	4,501306598674883E+000	2,149575466540412E+001	0,0000000E+000
8,000000000000000E+000	0,000000000000000E+000	2,438410660631749E+001	2,8734863E+000	-2,292414580239002E+001	4,481949943971746E+005	4,501233541316174E+000	2,438410660631749E+001	0,0000000E+000
8,000000000000000E+000	0,000000000000000E+000	2,727246535707388E+001	2,9012516E+000	-2,003578697609459E+001	4,505050080760885E+005	4,501045036671527E+000	2,727246535707388E+001	0,0000000E+000
8,000000000000000E+000	0,000000000000000E+000	3,016082120031417E+001	2,9334052E+000	-1,714743105699892E+001	4,528150217549782E+005	4,501365967385112E+000	3,016082120031417E+001	0,0000000E+000
8,000000000000000E+000	0,000000000000000E+000	3,304915370686277E+001	2,9731016E+000	-1,425909848131286E+001	4,551250354338889E+005	4,501251159937871E+000	3,304915370686277E+001	0,0000000E+000
8,000000000000000E+000	8,381469097779326E-001	0,000000000000000E+000	2,6682978E+000	-1,345647935374883E+001	4,574081251328514E+005	-4,497788012744557E+000	8,381469097779326E-001	0,0000000E+000
8,000000000000000E+000	3,724179247691870E+000	0,000000000000000E+000	2,5047381E+000	-1,634251163057666E+001	4,597181388117559E+005	-4,497591150018924E+000	3,724179247691870E+000	0,0000000E+000
8,000000000000000E+000	6,610213803432968E+000	0,000000000000000E+000	2,4339805E+000	-1,922854610731342E+001	4,620281524906552E+005	-4,497549825699076E+000	6,610213803432968E+000	0,0000000E+000
8,000000000000000E+000	9,496228771047274E+000	0,000000000000000E+000	2,4005396E+000	-2,211456099644163E+001	4,643381661695652E+005	-4,497564222284423E+000	9,496228771047274E+000	0,0000000E+000
8,000000000000000E+000	1,238226059586553E+001	0,000000000000000E+000	2,3738973E+000	-2,500059274217256E+001	4,666481798484554E+005	-4,497562249303016E+000	1,238226059586553E+001	0,0000000E+000
8,000000000000000E+000	1,526829562893043E+001	0,000000000000000E+000	2,3432217E+000	-2,788662769636819E+001	4,689581935273702E+005	-4,497790786310304E+000	1,526829562893043E+001	0,0000000E+000
8,000000000000000E+000	1,815432509633636E+001	0,000000000000000E+000	2,3045411E+000	-3,077265707895920E+001	4,712682072062641E+005	-4,497786877947096E+000	1,815432509633636E+001	0,0000000E+000
8,000000000000000E+000	2,104033927905570E+001	0,000000000000000E+000	2,2482314E+000	-3,365867116370360E+001	4,735782208851723E+005	-4,497629189713328E+000	2,104033927905570E+001	0,0000000E+000
8,000000000000000E+000	2,392635222002205E+001	0,000000000000000E+000	2,1316934E+000	-3,654468400692675E+001	4,758882345640734E+005	-4,497537177607890E+000	2,392635222002205E+001	0,0000000E+000
8,000000000000000E+000	2,681233694618863E+001	0,000000000000000E+000	1,7753077E+000	-3,943066861698151E+001	4,781982482429751E+005	-4,497620911055420E+000	2,681233694618863E+001	0,0000000E+000
8,000000000000000E+000	2,969832218200693E+001	0,000000000000000E+000	1,5256145E+000	-4,231665373714775E+001	4,805082619218826E+005	-4,497724685195055E+000	2,969832218200693E+001	0,0000000E+000
8,000000000000000E+000	3,258430774079217E+001	0,000000000000000E+000	1,2709792E+000	-4,520263917998102E+001	4,828182756007775E+005	-4,497519110838271E+000	3,258430774079217E+001	0,0000000E+000
9,000000000000000E+000	0,000000000000000E+000	1,381371481643783E-002	1,5556866E+000	-4,723011075224463E+001	4,847632253516866E+005	4,501476334722127E+000	1,381371481643783E-002	0,0000000E+000
9,000000000000000E+000	0,000000000000000E+000	1,076738789500819E+000	2,3264899E+000	-4,616718564385928E+001	4,856133081183163E+005	4,501330505836293E+000	1,076738789500819E+000	0,0000000E+000
9,000000000000000E+000	0,000000000000000E+000	3,887340288386030E+000	2,6726859E+000	-4,335658404746522E+001	4,878611316435626E+005	4,501280802929264E+000	3,887340288386030E+000	0,0000000E+000
9,000000000000000E+000	0,000000000000000E+000	6,775692636489683E+000	2,7350528E+000	-4,046823159673988E+001	4,901711453224551E+005	4,501434179992608E+000	6,775692636489683E+000	0,0000000E+000
9,000000000000000E+000	0,000000000000000E+000	9,664047092663790E+000	2,7529495E+000	-3,757987703847631E+001	4,924811590013639E+005	4,501433601366924E+000	9,664047092663790E+000	0,0000000E+000
9,000000000000000E+000	0,000000000000000E+000	1,255244699736921E+001	2,7725914E+000	-3,469147704401141E+001	4,947911726802643E+005	4,501419987390570E+000	1,255244699736921E+001	0,0000000E+000
9,000000000000000E+000	0,000000000000000E+000	1,544081170869038E+001	2,7950289E+000	-3,180311223329608E+001	4,971011863591672E+005	4,501396929743713E+000	1,544081170869038E+001	0,0000000E+000
9,000000000000000E+000	0,000000000000000E+000	1,832918893016979E+001	2,8193495E+000	-2,891473492063003E+001	4,994112000380736E+005	4,501460467790002E+000	1,832918893016979E+001	0,0000000E+000
9,000000000000000E+000	0,000000000000000E+000	2,121758180915390E+001	2,8446019E+000	-2,602634196750874E+001	5,017212137169698E+005	4,501354878812468E+000	2,121758180915390E+001	0,0000000E+000
9,000000000000000E+000	0,000000000000000E+000	2,410596144175506E+001	2,8696976E+000	-2,313796226030588E+001	5,040312273958828E+005	4,501358534485147E+000	2,410596144175506E+001	0,0000000E+000
9,000000000000000E+000	0,000000000000000E+000	2,699435453610885E+001	2,8967144E+000	-2,024956909187937E+001	5,063412410747726E+005	4,501527174335326E+000	2,699435453610885E+001	0,0000000E+000
9,000000000000000E+000	0,000000000000000E+000	2,988274532233807E+001	2,9292154E+000	-1,736117823123370E+001	5,086512547536846E+005	4,501500882952201E+000	2,988274532233807E+001	0,0000000E+000
9,000000000000000E+000	0,000000000000000E+000	3,277115220595923E+001	2,9694963E+000	-1,447277127869516E+001	5,109612684325818E+005	4,501351450268700E+000	3,277115220595923E+001	0,0000000E+000
9,000000000000000E+000	6,533741026283635E-001	0,000000000000000E+000	2,6928091E+000	-1,332012829151519E+001	5,132286287432702E+005	-4,497716401819852E+000	6,533741026283635E-001	0,0000000E+000
9,000000000000000E+000	3,539343132716708E+000	0,000000000000000E+000	2,5135794E+000	-1,620609726379559E+001	5,155386424221694E+005	-4,497552223838754E+000	3,539343132716708E+000	0,0000000E+000
9,000000000000000E+000	6,425360869223434E+000	0,000000000000000E+000	2,4399078E+000	-1,909211492170233E+001	5,178486561010741E+005	-4,497655321269562E+000	6,425360869223434E+000	0,0000000E+000
9,000000000000000E+000	9,311315881296050E+000	0,000000000000000E+000	2,4040341E+000	-2,197806985735009E+001	5,201586697799787E+005	-4,497682312593009E+000	9,311315881296050E+000	0,0000000E+000
9,000000000000000E+000	1,219728885032256E+001	0,000000000000000E+000	2,3769603E+000	-2,486404274955421E+001	5,224686834588773E+005	-4,497665134680732E+000	1,219728885032256E+001	0,0000000E+000
9,000000000000000E+000	1,508326809650473E+001	0,000000000000000E+000	2,3463151E+000	-2,775002191853825E+001	5,247786969038099E+005	-4,497750090650293E+000	1,508326809650473E+001	0,0000000E+000
9,000000000000000E+000	1,796924495801241E+001	0,000000000000000E+000	2,3075621E+000	-3,063599869021522E+001	5,270887094812058E+005	-4,497711034282083E+000	1,796924495801241E+001	0,0000000E+000
9,000000000000000E+000	2,085519014091822E+001	0,000000000000000E+000	2,2518673E+000	-3,352194373160320E+001	5,293987220586017E+005	-4,497660219647232E+000	2,085519014091822E+001	0,0000000E+000
9,000000000000000E+000	2,374115689517122E+001	0,000000000000000E+000	2,1378880E+000	-3,640791035867834E+001	5,317087346359976E+005	-4,497491440255248E+000	2,374115689517122E+001	0,0000000E+000
9,000000000000000E+000	2,662710389715667E+001	0,000000000000000E+000	1,7816972E+000	-3,929385722090806E+001	5,340187472134042E+005	-4,497545057542519E+000	2,662710389715667E+001	0,0000000E+000
9,000000000000000E+000	2,951304395955673E+001	0,000000000000000E+000	1,5275126E+000	-4,217979713987284E+001	5,363287597908191E+005	-4,497630350790670E+000	2,951304395955673E+001	0,0000000E+000
9,000000000000000E+000	3,239897258263941E+001	0,000000000000000E+000	1,2773687E+000	-4,506572561203193E+001	5,386387723682150E+005	-4,497512003090879E+000	3,239897258263941E+001	0,0000000E+000
1,000000000000000E+001	0,000000000000000E+000	1,197794213856591E-002	1,5461156E+000	-4,714050855017959E+001	5,406186699489728E+005	4,501524115337073E+000	1,197794213856591E-002	0,0000000E+000
1,000000000000000E+001	0,000000000000000E+000	1,020582350223170E+000	2,3168311E+000	-4,613190410869916E+001	5,414253123633452E+005	4,501300268180819E+000	1,020582350223170E+000	0,0000000E+000
1,000000000000000E+001	0,000000000000000E+000	3,798488689280299E+000	2,6775401E+000	-4,335399767542320E+001	5,436469794486910E+005	4,501372753344587E+000	3,798488689280299E+000	0,0000000E+000
1,000000000000000E+001	0,000000000000000E+000	6,686882121133277E+000	2,7375622E+000	-4,046560415243737E+001	5,459569920260869E+005	4,501294639466944E+000	6,686882121133277E+000	0,0000000E+000
1,000000000000000E+001	0,000000000000000E+000	9,575262595431933E+000	2,7558713E+000	-3,757722358312374E+001	5,482670046035051E+005	4,501389200459054E+000	9,575262595431933E+000	0,0000000E+000
1,000000000000000E+001	0,000000000000000E+000	1,246363821640255E+001	2,7765138E+000	-3,468884786584409E+001	5,505770171809085E+005	4,501341899350998E+000	1,246363821640255E+001	0,0000000E+000
1,000000000000000E+001	0,000000000000000E+000	1,535200933717475E+001	2,8000474E+000	-3,180047664719346E+001	5,528870297583044E+005	4,501344242061453E+000	1,535200933717475E+001	0,0000000E+000
1,000000000000000E+001	0,000000000000000E+000	1,824039016591557E+001	2,8254640E+000	-2,891209573116988E+001	5,551970423357002E+005	4,501366772186152E+000	1,824039016591557E+001	0,0000000E+000
1,000000000000000E+001	0,000000000000000E+000	2,112876405297789E+001	2,8512626E+000	-2,602372176911661E+001	5,575070549130971E+005	4,501439648700585E+000	2,112876405297789E+001	0,0000000E+000
1,000000000000000E+001	0,000000000000000E+000	2,401713908240993E+001	2,8770075E+000	-2,313534666488817E+001	5,598170674905153E+005	4,501308603541727E+000	2,401713908240993E+001	0,0000000E+000
1,000000000000000E+001	0,000000000000000E+000	2,690555054791956E+001	2,9049294E+000	-2,024693512622357E+001	5,621270800679177E+005	4,501410010202735E+000	2,690555054791956E+001	0,0000000E+000
1,000000000000000E+001	0,000000000000000E+000	2,979392759716587E+001	2,9378736E+000	-1,735855800237280E+001	5,644370926453136E+005	4,501216197415863E+000	2,979392759716587E+001	0,0000000E+000
1,000000000000000E+001	0,000000000000000E+000	3,268230329383852E+001	2,9789066E+000	-1,447018223595436E+001	5,667471052227095E+005	4,501298731073059E+000	3,268230329383852E+001	0,0000000E+000
1,000000000000000E+001	1,212734460540639E+000	0,000000000000000E+000	2,6322029E+000	-1,443727204658598E+001	5,690140226527825E+005	-4,497649764235664E+000	1,212734460540639E+000	0,0000000E+000
1,000000000000000E+001	4,098711156056218E+000	0,000000000000000E+000	2,4931660E+000	-1,732324867073864E+001	5,713240352301784E+005	-4,497652842339454E+000	4,098711156056218E+000	0,0000000E+000
1,000000000000000E+001	6,984707333292429E+000	0,000000000000000E+000	2,4283357E+000	-2,020924477023146E+001	5,736340478075743E+005	-4,497640084939102E+000	6,984707333292429E+000	0,0000000E+000
1,000000000000000E+001	9,870625189007068E+000	0,000000000000000E+000	2,3969154E+000	-2,309516255040015E+001	5,759440603849816E+005	-4,497488148160947E+000	9,870625189007068E+000	0,0000000E+000
1,000000000000000E+001	1,275655112074745E+001	0,000000000000000E+000	2,3692837E+000	-2,598108840672114E+001	5,782540729623958E+005	-4,497594912401522E+000	1,275655112074745E+001	0,0000000E+000
1,000000000000000E+001	1,404425944734803E+001	0,000000000000000E+000	2,3555806E+000	-2,726879669945399E+001	5,792848021029308E+005	-4,497482105669135E+000	1,404425944734803E+001	4,1394367E+001